{
  "resourceType": "Bundle",
  "id": "f190329a-3854-4a31-9ff5-417969f2a40d",
  "identifier": {
    "system": "https://tools.ietf.org/html/rfc4122",
    "value": "7966761a-6c1f-4a79-b797-541e0440ddd2"
  },
  "type": "message",
  "entry": [
    {
      "fullUrl": "urn:uuid:f190329a-3854-4a31-9ff5-417969f2a40d",
      "resource": {
        "resourceType": "MessageHeader",
        "id": "f190329a-3854-4a31-9ff5-417969f2a40d",
        "eventCoding": {
          "system": "https://fhir.nhs.uk/CodeSystem/message-event",
          "code": "prescription-order",
          "display": "Prescription Order"
        },
        "sender": {
          "identifier": {
            "system": "https://fhir.nhs.uk/Id/ods-organization-code",
            "value": "RBA"
          },
          "reference": "urn:uuid:56166769-c1c4-4d07-afa8-132b5dfca666",
          "display": "RANDOM|FIFTYSEVEN"
        },
        "source": {
          "endpoint": "https://directory.spineservices.nhs.uk/STU3/Organization/RBA"
        },
        "destination": [
          {
            "endpoint": "https://directory.spineservices.nhs.uk/STU3/Organization/FH542",
            "receiver": {
              "identifier": {
                "system": "https://fhir.nhs.uk/Id/ods-organization-code",
                "value": "FH542"
              }
            }
          }
        ],
        "focus": [
          {
            "reference": "urn:uuid:78d3c2eb-009e-4ec8-a358-b042954aa9b2"
          }
        ]
      }
    },
    {
      "fullUrl": "urn:uuid:787bcfda-e555-40ba-8422-ac79f3d11f0e",
      "resource": {
        "resourceType": "MedicationRequest",
        "id": "787bcfda-e555-40ba-8422-ac79f3d11f0e",
        "extension": [
          {
            "url": "https://fhir.nhs.uk/StructureDefinition/Extension-DM-PrescriptionType",
            "valueCoding": {
              "system": "https://fhir.nhs.uk/CodeSystem/prescription-type",
              "code": "1001",
              "display": "Outpatient Community Prescriber - Medical Prescriber"
            }
          }
        ],
        "identifier": [
          {
            "system": "https://fhir.nhs.uk/Id/prescription-order-item-number",
            "value": "787bcfda-e555-40ba-8422-ac79f3d11f0e"
          }
        ],
        "status": "active",
        "intent": "order",
        "category": [
          {
            "coding": [
              {
                "system": "http://terminology.hl7.org/CodeSystem/medicationrequest-category",
                "code": "outpatient",
                "display": "Outpatient"
              }
            ]
          }
        ],
        "medicationCodeableConcept": {
          "coding": [
            {
              "system": "http://snomed.info/sct",
              "code": "9655601000001105",
              "display": "Glandosane"
            }
          ]
        },
        "subject": {
          "reference": "urn:uuid:78d3c2eb-009e-4ec8-a358-b042954aa9b2"
        },
        "requester": {
          "reference": "urn:uuid:56166769-c1c4-4d07-afa8-132b5dfca666"
        },
        "groupIdentifier": {
          "extension": [
            {
              "url": "https://fhir.nhs.uk/StructureDefinition/Extension-DM-PrescriptionId",
              "valueIdentifier": {
                "system": "https://fhir.nhs.uk/Id/prescription",
                "value": "b784fb9f-d2ec-4db7-a3e3-fcd5bbd53681"
              }
            }
          ],
          "system": "https://fhir.nhs.uk/Id/prescription-order-number",
          "value": "FF7110-A99968-4179BK"
        },
        "courseOfTherapyType": {
          "coding": [
            {
              "system": "http://terminology.hl7.org/CodeSystem/medicationrequest-course-of-therapy",
              "code": "acute",
              "display": "Short course (acute) therapy"
            }
          ]
        },
        "dosageInstruction": [
          {
            "text": "Follow directions",
            "additionalInstruction": [
              {
                "coding": [
                  {
                    "system": "http://snomed.info/sct",
                    "code": "421769005",
                    "display": "Follow directions"
                  }
                ]
              }
            ]
          }
        ],
        "dispenseRequest": {
          "extension": [
            {
              "url": "https://fhir.nhs.uk/StructureDefinition/Extension-DM-PerformerSiteType",
              "valueCoding": {
                "system": "https://fhir.nhs.uk/CodeSystem/dispensing-site-preference",
                "code": "P1"
              }
            }
          ],
          "quantity": {
            "value": 50,
            "unit": "ml",
            "system": "http://snomed.info/sct",
            "code": "258773002"
          },
          "performer": {
            "identifier": {
              "system": "https://fhir.nhs.uk/Id/ods-organization-code",
              "value": "FH542"
            }
          }
        },
        "substitution": {
          "allowedBoolean": false
        }
      }
    },
    {
      "fullUrl": "urn:uuid:78d3c2eb-009e-4ec8-a358-b042954aa9b2",
      "resource": {
        "resourceType": "Patient",
        "id": "78d3c2eb-009e-4ec8-a358-b042954aa9b2",
        "identifier": [
          {
            "system": "https://fhir.nhs.uk/Id/nhs-number",
            "value": "9449310394"
          }
        ],
        "name": [
          {
            "use": "official",
            "family": "Lewington",
            "given": ["TRACE"],
            "prefix": ["MR"]
          }
        ],
        "gender": "male",
        "birthDate": "1908-04-03",
        "address": [
          {
            "use": "home",
            "line": ["1 NETHERNE LANE", "COULSDON", "Surrey"],
            "postalCode": "CR5 1NR"
          }
        ],
        "generalPractitioner": [
          {
            "identifier": {
              "system": "https://fhir.nhs.uk/Id/ods-organization-code",
              "value": "B81001"
            }
          }
        ]
      }
    },
    {
      "fullUrl": "urn:uuid:a8c85454-f8cb-498d-9629-78e2cb5fa47a",
      "resource": {
        "resourceType": "Practitioner",
        "id": "a8c85454-f8cb-498d-9629-78e2cb5fa47a",
        "identifier": [
          {
            "system": "https://fhir.nhs.uk/Id/sds-user-id",
            "value": "555086689106"
          },
          {
            "system": "https://fhir.hl7.org.uk/Id/gmc-number",
            "value": "6150129"
          }
        ],
        "name": [
          {
            "family": "FIFTYSEVEN",
            "given": ["RANDOM"],
            "prefix": ["MR"]
          }
        ]
      }
    },
    {
      "fullUrl": "urn:uuid:56166769-c1c4-4d07-afa8-132b5dfca666",
      "resource": {
        "resourceType": "PractitionerRole",
        "id": "56166769-c1c4-4d07-afa8-132b5dfca666",
        "identifier": [
          {
            "system": "https://fhir.nhs.uk/Id/sds-role-profile-id",
            "value": "201715352555"
          },
          {
            "system": "https://fhir.hl7.org.uk/Id/nhsbsa-spurious-code",
            "value": "683458"
          }
        ],
        "practitioner": {
          "reference": "urn:uuid:a8c85454-f8cb-498d-9629-78e2cb5fa47a"
        },
        "organization": {
          "reference": "urn:uuid:3b4b03a5-52ba-4ba6-9b82-70350aa109d8"
        },
        "code": [
          {
            "coding": [
              {
                "system": "https://fhir.nhs.uk/CodeSystem/NHSDigital-SDS-JobRoleCode",
                "code": "S8000:G8000:R8000",
                "display": "Clinical Practitioner Access Role"
              }
            ]
          }
        ],
        "telecom": [
          {
            "system": "phone",
            "value": "01234567890",
            "use": "work"
          }
        ]
      }
    },
    {
      "fullUrl": "urn:uuid:3b4b03a5-52ba-4ba6-9b82-70350aa109d8",
      "resource": {
        "resourceType": "Organization",
        "id": "3b4b03a5-52ba-4ba6-9b82-70350aa109d8",
        "identifier": [
          {
            "system": "https://fhir.nhs.uk/Id/ods-organization-code",
            "value": "A99968"
          }
        ],
        "name": "SOMERSET BOWEL CANCER SCREENING CENTRE",
        "address": [
          {
            "use": "work",
            "line": ["MUSGROVE PARK HOSPITAL"],
            "city": "TAUNTON",
            "postalCode": "TA1 5DA"
          }
        ],
        "telecom": [
          {
            "system": "phone",
            "value": "01823 333444",
            "use": "work"
          }
        ],
        "partOf": {
          "identifier": {
            "system": "https://fhir.nhs.uk/Id/ods-organization-code",
            "value": "RBA"
          },
          "display": "TAUNTON AND SOMERSET NHS FOUNDATION TRUST"
        }
      }
    }
  ]
}
