{
  "resourceType": "Bundle",
  "id": "aef77afb-7e3c-427a-8657-2c427f71a271",
  "identifier": {
    "system": "https://tools.ietf.org/html/rfc4122",
    "value": "8de3221e-54b7-4994-a55b-e7038abd36ad"
  },
  "type": "message",
  "entry": [
    {
      "fullUrl": "urn:uuid:aef77afb-7e3c-427a-8657-2c427f71a271",
      "resource": {
        "resourceType": "MessageHeader",
        "id": "3599c0e9-9292-413e-9270-9a1ef1ead99c",
        "eventCoding": {
          "system": "https://fhir.nhs.uk/CodeSystem/message-event",
          "code": "prescription-order",
          "display": "Prescription Order"
        },
        "sender": {
          "identifier": {
            "system": "https://fhir.nhs.uk/Id/ods-organization-code",
            "value": "RBA"
          },
          "reference": "urn:uuid:56166769-c1c4-4d07-afa8-132b5dfca666",
          "display": "RAZIA|ALI"
        },
        "source": {
          "endpoint": "https://directory.spineservices.nhs.uk/STU3/Organization/RBA"
        },
        "destination": [
          {
            "endpoint": "https://directory.spineservices.nhs.uk/STU3/Organization/FH542",
            "receiver": {
              "identifier": {
                "system": "https://fhir.nhs.uk/Id/ods-organization-code",
                "value": "FH542"
              }
            }
          }
        ],
        "focus": [
          {
            "reference": "urn:uuid:56166769-c1c4-4d07-afa8-132b5dfca666"
          },
          {
            "reference": "urn:uuid:a54219b8-f741-4c47-b662-e4f8dfa49ab6"
          }
        ]
      }
    },
    {
      "fullUrl": "urn:uuid:a54219b8-f741-4c47-b662-e4f8dfa49ab6",
      "resource": {
        "resourceType": "MedicationRequest",
        "id": "a54219b8-f741-4c47-b662-e4f8dfa49ab6",
        "extension": [
          {
            "url": "https://fhir.nhs.uk/StructureDefinition/Extension-DM-PrescriptionType",
            "valueCoding": {
              "system": "https://fhir.nhs.uk/CodeSystem/prescription-type",
              "code": "1001",
              "display": "Outpatient Community Prescriber - Medical Prescriber"
            }
          },
          {
            "url": "https://fhir.hl7.org.uk/StructureDefinition/Extension-UKCore-MedicationRepeatInformation",
            "extension": [
              {
                "url": "authorisationExpiryDate",
                "valueDateTime": "2024-11-30"
              }
            ]
          }
        ],
        "identifier": [
          {
            "system": "https://fhir.nhs.uk/Id/prescription-order-item-number",
            "value": "a54219b8-f741-4c47-b662-e4f8dfa49ab6"
          }
        ],
        "status": "active",
        "intent": "original-order",
        "category": [
          {
            "coding": [
              {
                "system": "http://terminology.hl7.org/CodeSystem/medicationrequest-category",
                "code": "outpatient",
                "display": "Outpatient"
              }
            ]
          }
        ],
        "medicationCodeableConcept": {
          "coding": [
            {
              "system": "http://snomed.info/sct",
              "code": "15517911000001104",
              "display": "Methotrexate 10mg/0.2ml solution for injection pre-filled syringes"
            }
          ]
        },
        "subject": {
          "reference": "urn:uuid:78d3c2eb-009e-4ec8-a358-b042954aa9b2"
        },
        "requester": {
          "reference": "urn:uuid:56166769-c1c4-4d07-afa8-132b5dfca666"
        },
        "groupIdentifier": {
          "extension": [
            {
              "url": "https://fhir.nhs.uk/StructureDefinition/Extension-DM-PrescriptionId",
              "valueIdentifier": {
                "system": "https://fhir.nhs.uk/Id/prescription",
                "value": "10d37820-dda2-4810-94d7-c79e5fdb4b46"
              }
            }
          ],
          "system": "https://fhir.nhs.uk/Id/prescription-order-number",
          "value": "B407F7-A99968-4DB2AU"
        },
        "courseOfTherapyType": {
          "coding": [
            {
              "system": "https://fhir.nhs.uk/CodeSystem/medicationrequest-course-of-therapy",
              "code": "continuous-repeat-dispensing",
              "display": "Continuous long term (repeat dispensing)"
            }
          ]
        },
        "dosageInstruction": [
          {
            "text": "Inject 10 milligram - 5 times a day - Subcutaneous route - for 10 days",
            "timing": {
              "repeat": {
                "frequency": 5,
                "period": 1,
                "periodUnit": "d",
                "boundsDuration": {
                  "value": 10,
                  "unit": "day",
                  "system": "http://unitsofmeasure.org",
                  "code": "d"
                }
              }
            },
            "method": {
              "coding": [
                {
                  "system": "http://snomed.info/sct",
                  "code": "422145002",
                  "display": "Inject"
                }
              ]
            },
            "route": {
              "coding": [
                {
                  "system": "http://snomed.info/sct",
                  "code": "34206005",
                  "display": "Subcutaneous route"
                }
              ]
            },
            "doseAndRate": [
              {
                "doseQuantity": {
                  "value": 10,
                  "unit": "milligram",
                  "system": "http://unitsofmeasure.org",
                  "code": "mg"
                }
              }
            ]
          }
        ],
        "dispenseRequest": {
          "extension": [
            {
              "url": "https://fhir.nhs.uk/StructureDefinition/Extension-DM-PerformerSiteType",
              "valueCoding": {
                "system": "https://fhir.nhs.uk/CodeSystem/dispensing-site-preference",
                "code": "P1"
              }
            }
          ],
          "numberOfRepeatsAllowed": 5,
          "validityPeriod": {
            "start": "2021-09-03",
            "end": "2021-10-03"
          },
          "quantity": {
            "value": 63,
            "unit": "tablet",
            "system": "http://snomed.info/sct",
            "code": "428673006"
          },
          "expectedSupplyDuration": {
            "value": 28,
            "unit": "days",
            "system": "http://unitsofmeasure.org",
            "code": "d"
          },
          "performer": {
            "identifier": {
              "system": "https://fhir.nhs.uk/Id/ods-organization-code",
              "value": "FER21"
            }
          }
        },
        "substitution": {
          "allowedBoolean": false
        }
      }
    },
    {
      "fullUrl": "urn:uuid:78d3c2eb-009e-4ec8-a358-b042954aa9b2",
      "resource": {
        "resourceType": "Patient",
        "id": "78d3c2eb-009e-4ec8-a358-b042954aa9b2",
        "identifier": [
          {
            "system": "https://fhir.nhs.uk/Id/nhs-number",
            "value": "9449305552"
          }
        ],
        "name": [
          {
            "use": "usual",
            "family": "CORY",
            "given": ["ETTA"],
            "prefix": ["MISS"]
          }
        ],
        "gender": "female",
        "birthDate": "1999-01-04",
        "address": [
          {
            "use": "home",
            "line": ["123 Dale Avenue", "Long Eaton", "Nottingham"],
            "postalCode": "NG10 1NP"
          }
        ],
        "generalPractitioner": [
          {
            "identifier": {
              "system": "https://fhir.nhs.uk/Id/ods-organization-code",
              "value": "B81001"
            }
          }
        ]
      }
    },
    {
      "fullUrl": "urn:uuid:56166769-c1c4-4d07-afa8-132b5dfca666",
      "resource": {
        "resourceType": "PractitionerRole",
        "id": "56166769-c1c4-4d07-afa8-132b5dfca666",
        "identifier": [
          {
            "system": "https://fhir.nhs.uk/Id/sds-role-profile-id",
            "value": "100102238986"
          },
          {
            "system": "https://fhir.hl7.org.uk/Id/nhsbsa-spurious-code",
            "value": "612345"
          }
        ],
        "practitioner": {
          "reference": "urn:uuid:a8c85454-f8cb-498d-9629-78e2cb5fa47a"
        },
        "organization": {
          "reference": "urn:uuid:3b4b03a5-52ba-4ba6-9b82-70350aa109d8"
        },
        "code": [
          {
            "coding": [
              {
                "system": "https://fhir.nhs.uk/CodeSystem/NHSDigital-SDS-JobRoleCode",
                "code": "S8000:G8000:R8000",
                "display": "Clinical Practitioner Access Role"
              }
            ]
          }
        ],
        "telecom": [
          {
            "system": "phone",
            "value": "01234567890",
            "use": "work"
          }
        ]
      }
    },
    {
      "fullUrl": "urn:uuid:a8c85454-f8cb-498d-9629-78e2cb5fa47a",
      "resource": {
        "resourceType": "Practitioner",
        "id": "a8c85454-f8cb-498d-9629-78e2cb5fa47a",
        "identifier": [
          {
            "system": "https://fhir.nhs.uk/Id/sds-user-id",
            "value": "3415870201"
          },
          {
            "system": "https://fhir.hl7.org.uk/Id/gmc-number",
            "value": "4428981"
          }
        ],
        "name": [
          {
            "family": "Edwards",
            "given": ["Thomas"],
            "prefix": ["DR"]
          }
        ]
      }
    },
    {
      "fullUrl": "urn:uuid:3b4b03a5-52ba-4ba6-9b82-70350aa109d8",
      "resource": {
        "resourceType": "Organization",
        "id": "3b4b03a5-52ba-4ba6-9b82-70350aa109d8",
        "identifier": [
          {
            "system": "https://fhir.nhs.uk/Id/ods-organization-code",
            "value": "A99968"
          }
        ],
        "name": "SOMERSET BOWEL CANCER SCREENING CENTRE",
        "address": [
          {
            "use": "work",
            "line": ["MUSGROVE PARK HOSPITAL"],
            "city": "TAUNTON",
            "postalCode": "TA1 5DA"
          }
        ],
        "telecom": [
          {
            "system": "phone",
            "value": "01823 333444",
            "use": "work"
          }
        ],
        "partOf": {
          "identifier": {
            "system": "https://fhir.nhs.uk/Id/ods-organization-code",
            "value": "RBA"
          },
          "display": "TAUNTON AND SOMERSET NHS FOUNDATION TRUST"
        }
      }
    },
    {
      "fullUrl": "urn:uuid:28828c55-8fa7-42d7-916f-fcf076e0c10e",
      "resource": {
        "resourceType": "Provenance",
        "id": "28828c55-8fa7-42d7-916f-fcf076e0c10e",
        "target": [
          {
            "reference": "urn:uuid:a54219b8-f741-4c47-b662-e4f8dfa49ab6"
          }
        ],
        "recorded": "2021-02-11T16:35:38+00:00",
        "agent": [
          {
            "who": {
              "reference": "urn:uuid:56166769-c1c4-4d07-afa8-132b5dfca666"
            }
          }
        ],
        "signature": [
          {
            "type": [
              {
                "system": "urn:iso-astm:E1762-95:2013",
                "code": "1.2.840.10065.1.12.1.1"
              }
            ],
            "when": "2021-09-03T13:31:02+00:00",
            "who": {
              "reference": "urn:uuid:56166769-c1c4-4d07-afa8-132b5dfca666"
            },
            "data": ""
          }
        ]
      }
    }
  ]
}
