{
  "resourceType": "Claim",
  "contained": [
    {
      "resourceType": "PractitionerRole",
      "id": "performer",
      "identifier": [
        {
          "system": "https://fhir.nhs.uk/Id/sds-role-profile-id",
          "value": "555086415105"
        }
      ],
      "practitioner": {
        "identifier": {
          "system": "https://fhir.nhs.uk/Id/sds-user-id",
          "value": "3415870201"
        },
        "display": "Mr Peter Potion"
      },
      "organization": {
        "reference": "#organizationId"
      },
      "code": [
        {
          "coding": [
            {
              "system": "https://fhir.nhs.uk/CodeSystem/NHSDigital-SDS-JobRoleCode",
              "code": "S8000:G8000:R8000",
              "display": "Clinical Practitioner Access Role"
            }
          ]
        }
      ],
      "telecom": [
        {
          "system": "phone",
          "use": "work",
          "value": "0532567890"
        }
      ]
    },
    {
      "resourceType": "Organization",
      "extension": [
        {
          "url": "https://fhir.nhs.uk/StructureDefinition/Extension-ODS-OrganisationRelationships",
          "extension": [
            {
              "url": "reimbursementAuthority",
              "valueIdentifier": {
                "system": "https://fhir.nhs.uk/Id/ods-organization-code",
                "value": "T1450"
              }
            }
          ]
        }
      ],
      "identifier": [
        {
          "system": "https://fhir.nhs.uk/Id/ods-organization-code",
          "value": "VNE51"
        }
      ],
      "id": "organizationId",
      "address": [
        {
          "city": "West Yorkshire",
          "use": "work",
          "line": [
            "17 Austhorpe Road",
            "Crossgates",
            "Leeds"
          ],
          "postalCode": "LS15 8BA"
        }
      ],
      "active": true,
      "type": [
        {
          "coding": [
            {
              "system": "https://fhir.nhs.uk/CodeSystem/organisation-role",
              "code": "182",
              "display": "PHARMACY"
            }
          ]
        }
      ],
      "name": "The Simple Pharmacy",
      "telecom": [
        {
          "system": "phone",
          "use": "work",
          "value": "0113 3180277"
        }
      ]
    }
  ],
  "created": "2024-01-09T09:29:02.725Z",
  "extension": [
    {
      "url": "https://fhir.nhs.uk/StructureDefinition/Extension-Provenance-agent",
      "valueReference": {
        "identifier": {
          "system": "https://fhir.nhs.uk/Id/sds-role-profile-id",
          "value": "555086415105"
        },
        "display": "dummy full name"
      }
    }
  ],
  "identifier": [
    {
      "system": "https://tools.ietf.org/html/rfc4122",
      "value": "22dc23c8-cd73-47f7-940e-8ecc15e8330f"
    }
  ],
  "status": "active",
  "type": {
    "coding": [
      {
        "system": "http://terminology.hl7.org/CodeSystem/claim-type",
        "code": "pharmacy",
        "display": "Pharmacy"
      }
    ]
  },
  "use": "claim",
  "patient": {
    "identifier": {
      "system": "https://fhir.nhs.uk/Id/nhs-number",
      "value": "9449304130"
    }
  },
  "provider": {
    "reference": "#performer"
  },
  "priority": {
    "coding": [
      {
        "system": "http://terminology.hl7.org/CodeSystem/processpriority",
        "code": "normal"
      }
    ]
  },
  "insurance": [
    {
      "sequence": 1,
      "focal": true,
      "coverage": {
        "identifier": {
          "system": "https://fhir.nhs.uk/Id/ods-organization-code",
          "value": "T1450"
        },
        "display": "NHS BUSINESS SERVICES AUTHORITY"
      }
    }
  ],
  "payee": {
    "type": {
      "coding": [
        {
          "system": "http://terminology.hl7.org/CodeSystem/payeetype",
          "code": "provider",
          "display": "Provider"
        }
      ]
    },
    "party": {
      "reference": "#organizationId"
    }
  },
  "prescription": {
    "extension": [
      {
        "url": "https://fhir.nhs.uk/StructureDefinition/Extension-DM-GroupIdentifier",
        "extension": [
          {
            "url": "shortForm",
            "valueIdentifier": {
              "system": "https://fhir.nhs.uk/Id/prescription-order-number",
              "value": "2CAE80-A83008-A2D65U"
            }
          },
          {
            "url": "UUID",
            "valueIdentifier": {
              "system": "https://fhir.nhs.uk/Id/prescription",
              "value": "{{prescription_uuid}}"
            }
          }
        ]
      }
    ]
  },
  "item": [
    {
      "extension": [
        {
          "url": "https://fhir.nhs.uk/StructureDefinition/Extension-EPS-TaskBusinessStatus",
          "valueCoding": {
            "code": "0006",
            "system": "https://fhir.nhs.uk/CodeSystem/EPS-task-business-status",
            "display": "Dispensed"
          }
        }
      ],
      "sequence": 1,
      "productOrService": {
        "coding": [
          {
            "system": "http://snomed.info/sct",
            "code": "16076005",
            "display": "Prescription"
          }
        ]
      },
      "programCode": [
        {
          "coding": [
            {
              "code": "0001",
              "system": "https://fhir.nhs.uk/CodeSystem/prescription-charge-exemption",
              "display": "Patient has paid appropriate charges"
            }
          ]
        },
        {
          "coding": [
            {
              "system": "https://fhir.nhs.uk/CodeSystem/DM-exemption-evidence",
              "code": "evidence-seen",
              "display": "Evidence Seen"
            }
          ]
        }
      ],
      "detail": [
        {
          "extension": [
            {
              "url": "https://fhir.nhs.uk/StructureDefinition/Extension-ClaimSequenceIdentifier",
              "valueIdentifier": {
                "system": "https://fhir.nhs.uk/Id/claim-sequence-identifier",
                "value": "67b960e8-e064-4f8a-a1ea-9ca9cf989f22"
              }
            },
            {
              "url": "https://fhir.nhs.uk/StructureDefinition/Extension-ClaimMedicationRequestReference",
              "valueReference": {
                "identifier": {
                  "system": "https://fhir.nhs.uk/Id/prescription-order-item-number",
                  "value": "7d34e1c9-ebb1-454a-8471-93ba96c6d54b"
                }
              }
            }
          ],
          "sequence": 1,
          "productOrService": {
            "coding": [
              {
                "system": "http://snomed.info/sct",
                "code": "39732311000001104",
                "display": "Amoxicillin 250mg capsules"
              }
            ]
          },
          "modifier": [
            {
              "coding": [
                {
                  "code": "0001",
                  "system": "https://fhir.nhs.uk/CodeSystem/medicationdispense-type",
                  "display": "Item fully dispensed"
                }
              ]
            }
          ],
          "quantity": {
            "value": 20,
            "unit": "tablet",
            "system": "http://snomed.info/sct",
            "code": "428673006"
          },
          "programCode": [
            {
              "coding": [
                {
                  "system": "https://fhir.nhs.uk/CodeSystem/DM-prescription-charge",
                  "code": "paid-once",
                  "display": "Paid Once"
                }
              ]
            }
          ],
          "subDetail": [
            {
              "sequence": 1,
              "productOrService": {
                "coding": [
                  {
                    "system": "http://snomed.info/sct",
                    "code": "39732311000001104",
                    "display": "Amoxicillin 250mg capsules"
                  }
                ]
              },
              "quantity": {
                "value": 20,
                "unit": "tablet",
                "system": "http://snomed.info/sct",
                "code": "428673006"
              }
            }
          ]
        },
        {
          "extension": [
            {
              "url": "https://fhir.nhs.uk/StructureDefinition/Extension-ClaimSequenceIdentifier",
              "valueIdentifier": {
                "system": "https://fhir.nhs.uk/Id/claim-sequence-identifier",
                "value": "8c90cffa-dbe1-488e-9442-35afe02943c6"
              }
            },
            {
              "url": "https://fhir.nhs.uk/StructureDefinition/Extension-ClaimMedicationRequestReference",
              "valueReference": {
                "identifier": {
                  "system": "https://fhir.nhs.uk/Id/prescription-order-item-number",
                  "value": "c5dbd6da-4b4f-42eb-9e3b-16623e1b2579"
                }
              }
            }
          ],
          "sequence": 2,
          "productOrService": {
            "coding": [
              {
                "system": "http://snomed.info/sct",
                "code": "322341003",
                "display": "Co-codamol 30mg/500mg tablets"
              }
            ]
          },
          "modifier": [
            {
              "coding": [
                {
                  "code": "0001",
                  "system": "https://fhir.nhs.uk/CodeSystem/medicationdispense-type",
                  "display": "Item fully dispensed"
                }
              ]
            }
          ],
          "quantity": {
            "value": 20,
            "unit": "tablet",
            "system": "http://snomed.info/sct",
            "code": "428673006"
          },
          "programCode": [
            {
              "coding": [
                {
                  "system": "https://fhir.nhs.uk/CodeSystem/DM-prescription-charge",
                  "code": "paid-once",
                  "display": "Paid Once"
                }
              ]
            }
          ],
          "subDetail": [
            {
              "sequence": 1,
              "productOrService": {
                "coding": [
                  {
                    "system": "http://snomed.info/sct",
                    "code": "322341003",
                    "display": "Co-codamol 30mg/500mg tablets"
                  }
                ]
              },
              "quantity": {
                "value": 20,
                "unit": "tablet",
                "system": "http://snomed.info/sct",
                "code": "428673006"
              }
            }
          ]
        },
        {
          "extension": [
            {
              "url": "https://fhir.nhs.uk/StructureDefinition/Extension-ClaimSequenceIdentifier",
              "valueIdentifier": {
                "system": "https://fhir.nhs.uk/Id/claim-sequence-identifier",
                "value": "24ef63f2-d2be-44df-9289-4d3cb8ea853f"
              }
            },
            {
              "url": "https://fhir.nhs.uk/StructureDefinition/Extension-ClaimMedicationRequestReference",
              "valueReference": {
                "identifier": {
                  "system": "https://fhir.nhs.uk/Id/prescription-order-item-number",
                  "value": "c7174db1-437f-471c-baad-3373a83113aa"
                }
              }
            }
          ],
          "sequence": 3,
          "productOrService": {
            "coding": [
              {
                "system": "http://snomed.info/sct",
                "code": "321080004",
                "display": "Pseudoephedrine hydrochloride 60mg tablets"
              }
            ]
          },
          "modifier": [
            {
              "coding": [
                {
                  "code": "0001",
                  "system": "https://fhir.nhs.uk/CodeSystem/medicationdispense-type",
                  "display": "Item fully dispensed"
                }
              ]
            }
          ],
          "quantity": {
            "value": 30,
            "unit": "tablet",
            "system": "http://snomed.info/sct",
            "code": "428673006"
          },
          "programCode": [
            {
              "coding": [
                {
                  "system": "https://fhir.nhs.uk/CodeSystem/DM-prescription-charge",
                  "code": "paid-once",
                  "display": "Paid Once"
                }
              ]
            }
          ],
          "subDetail": [
            {
              "sequence": 1,
              "productOrService": {
                "coding": [
                  {
                    "system": "http://snomed.info/sct",
                    "code": "321080004",
                    "display": "Pseudoephedrine hydrochloride 60mg tablets"
                  }
                ]
              },
              "quantity": {
                "value": 30,
                "unit": "tablet",
                "system": "http://snomed.info/sct",
                "code": "428673006"
              }
            }
          ]
        },
        {
          "extension": [
            {
              "url": "https://fhir.nhs.uk/StructureDefinition/Extension-ClaimSequenceIdentifier",
              "valueIdentifier": {
                "system": "https://fhir.nhs.uk/Id/claim-sequence-identifier",
                "value": "44c28650-d71d-49d1-9edb-b275b00ab2c6"
              }
            },
            {
              "url": "https://fhir.nhs.uk/StructureDefinition/Extension-ClaimMedicationRequestReference",
              "valueReference": {
                "identifier": {
                  "system": "https://fhir.nhs.uk/Id/prescription-order-item-number",
                  "value": "6358db7a-bf1a-446a-b0de-a46ecdcceb34"
                }
              }
            }
          ],
          "sequence": 4,
          "productOrService": {
            "coding": [
              {
                "system": "http://snomed.info/sct",
                "code": "324252006",
                "display": "Azithromycin 250mg capsules"
              }
            ]
          },
          "modifier": [
            {
              "coding": [
                {
                  "code": "0001",
                  "system": "https://fhir.nhs.uk/CodeSystem/medicationdispense-type",
                  "display": "Item fully dispensed"
                }
              ]
            }
          ],
          "quantity": {
            "value": 30,
            "unit": "tablet",
            "system": "http://snomed.info/sct",
            "code": "428673006"
          },
          "programCode": [
            {
              "coding": [
                {
                  "system": "https://fhir.nhs.uk/CodeSystem/DM-prescription-charge",
                  "code": "paid-once",
                  "display": "Paid Once"
                }
              ]
            }
          ],
          "subDetail": [
            {
              "sequence": 1,
              "productOrService": {
                "coding": [
                  {
                    "system": "http://snomed.info/sct",
                    "code": "324252006",
                    "display": "Azithromycin 250mg capsules"
                  }
                ]
              },
              "quantity": {
                "value": 30,
                "unit": "tablet",
                "system": "http://snomed.info/sct",
                "code": "428673006"
              }
            }
          ]
        }
      ]
    }
  ]
}
