{
  "resourceType": "Claim",
  "created": "2022-03-15T13:51:43.621Z",
  "contained": [
    {
      "resourceType": "PractitionerRole",
      "id": "performer",
      "identifier": [
        {
          "system": "https://fhir.nhs.uk/Id/sds-role-profile-id",
          "value": "555086415105"
        }
      ],
      "practitioner": {
        "identifier": {
          "system": "https://fhir.nhs.uk/Id/sds-user-id",
          "value": "3415870201"
        },
        "display": "Mr Peter Potion"
      },
      "organization": {
        "reference": "#organization"
      },
      "code": [
        {
          "coding": [
            {
              "system": "https://fhir.nhs.uk/CodeSystem/NHSDigital-SDS-JobRoleCode",
              "code": "S8000:G8000:R8000",
              "display": "Clinical Practitioner Access Role"
            }
          ]
        }
      ],
      "telecom": [
        {
          "system": "phone",
          "use": "work",
          "value": "0532567890"
        }
      ]
    },
    {
      "resourceType": "Organization",
      "id": "organization",
      "identifier":  [
        {
          "system": "https://fhir.nhs.uk/Id/ods-organization-code",
          "value": "VNE51"
        }
      ],
      "address":  [
        {
          "city": "West Yorkshire",
          "use": "work",
          "line":  [
            "17 Austhorpe Road",
            "Crossgates",
            "Leeds"
          ],
          "postalCode": "LS15 8BA"
        }
      ],
      "active": true,
      "type":  [
        {
          "coding":  [
            {
              "system": "https://fhir.nhs.uk/CodeSystem/organisation-role",
              "code": "182",
              "display": "PHARMACY"
            }
          ]
        }
      ],
      "name": "The Simple Pharmacy",
      "telecom":  [
        {
          "system": "phone",
          "use": "work",
          "value": "0113 3180277"
        }
      ]
    }
  ],
  "extension": [
    {
      "url": "https://fhir.nhs.uk/StructureDefinition/Extension-Provenance-agent",
      "valueReference": {
        "identifier": {
          "system": "https://fhir.nhs.uk/Id/sds-role-profile-id",
          "value": "884562163557"
        },
        "display": "dummy full name"
      }
    },
    {
      "url": "https://fhir.nhs.uk/StructureDefinition/Extension-replacementOf",
      "valueIdentifier": {
        "value": "2eefcd5d-a734-4366-add1-56a82fa2bd5a",
        "system": "https://tools.ietf.org/html/rfc4122"
      }
    }
  ],
  "identifier": [
    {
      "system": "https://tools.ietf.org/html/rfc4122",
      "value": "6f660dae-860b-45ee-bc36-9b3d75e7c237"
    }
  ],
  "status": "active",
  "type": {
    "coding": [
      {
        "system": "http://terminology.hl7.org/CodeSystem/claim-type",
        "code": "pharmacy",
        "display": "Pharmacy"
      }
    ]
  },
  "use": "claim",
  "patient": {
    "identifier": {
      "system": "https://fhir.nhs.uk/Id/nhs-number",
      "value": "9990548609"
    }
  },
  "provider": {
    "reference": "#performer"
  },
  "priority": {
    "coding": [
      {
        "system": "http://terminology.hl7.org/CodeSystem/processpriority",
        "code": "normal"
      }
    ]
  },
  "insurance": [
    {
      "sequence": 1,
      "focal": true,
      "coverage": {
        "identifier": {
          "system": "https://fhir.nhs.uk/Id/ods-organization-code",
          "value": "T1450"
        },
        "display": "NHS BUSINESS SERVICES AUTHORITY"
      }
    }
  ],
  "payee": {
    "type": {
      "coding": [
        {
          "system": "http://terminology.hl7.org/CodeSystem/payeetype",
          "code": "provider",
          "display": "Provider"
        }
      ]
    },
    "party": {
      "reference": "#organization"
    }
  },
  "prescription": {
    "extension": [
      {
        "url": "https://fhir.nhs.uk/StructureDefinition/Extension-DM-GroupIdentifier",
        "extension": [
          {
            "url": "shortForm",
            "valueIdentifier": {
              "system": "https://fhir.nhs.uk/Id/prescription-order-number",
              "value": "40E709-A99968-280C0X"
            }
          },
          {
            "url": "UUID",
            "valueIdentifier": {
              "system": "https://fhir.nhs.uk/Id/prescription",
              "value": "410489a5-5316-426c-98f5-af1502d71b39"
            }
          }
        ]
      }
    ]
  },
  "item": [
    {
      "extension": [
        {
          "url": "https://fhir.nhs.uk/StructureDefinition/Extension-EPS-TaskBusinessStatus",
          "valueCoding": {
            "code": "0006",
            "system": "https://fhir.nhs.uk/CodeSystem/EPS-task-business-status",
            "display": "Dispensed"
          }
        }
      ],
      "sequence": 1,
      "productOrService": {
        "coding": [
          {
            "system": "http://snomed.info/sct",
            "code": "16076005",
            "display": "Prescription"
          }
        ]
      },
      "programCode": [
        {
          "coding": [
            {
              "code": "0001",
              "system": "https://fhir.nhs.uk/CodeSystem/prescription-charge-exemption",
              "display": "Patient has paid appropriate charges"
            }
          ]
        },
        {
          "coding": [
            {
              "system": "https://fhir.nhs.uk/CodeSystem/DM-exemption-evidence",
              "code": "evidence-seen",
              "display": "Evidence Seen"
            }
          ]
        }
      ],
      "detail": [
        {
          "extension": [
            {
              "url": "https://fhir.nhs.uk/StructureDefinition/Extension-ClaimSequenceIdentifier",
              "valueIdentifier": {
                "system": "https://fhir.nhs.uk/Id/claim-sequence-identifier",
                "value": "dd3e5443-ce58-4e83-b201-a81777487e0a"
              }
            },
            {
              "url": "https://fhir.nhs.uk/StructureDefinition/Extension-ClaimMedicationRequestReference",
              "valueReference": {
                "identifier": {
                  "system": "https://fhir.nhs.uk/Id/prescription-order-item-number",
                  "value": "5a82c11e-ea26-4405-aceb-741d8ca68b95"
                }
              }
            }
          ],
          "sequence": 1,
          "productOrService": {
            "coding": [
              {
                "system": "http://snomed.info/sct",
                "code": "15517911000001104",
                "display": "Methotrexate 10mg/0.2ml solution for injection pre-filled syringes"
              }
            ]
          },
          "modifier": [
            {
              "coding": [
                {
                  "code": "0001",
                  "system": "https://fhir.nhs.uk/CodeSystem/medicationdispense-type",
                  "display": "Item fully dispensed"
                }
              ]
            }
          ],
          "quantity": {
            "value": 1,
            "unit": "pre-filled disposable injection",
            "system": "http://snomed.info/sct",
            "code": "3318611000001103"
          },
          "programCode": [
            {
              "coding": [
                {
                  "code": "BB",
                  "system": "https://fhir.nhs.uk/CodeSystem/medicationdispense-endorsement",
                  "display": "Broken Bulk"
                }
              ],
              "text": "Supporting Info for Broken Bulk"
            },
            {
              "coding": [
                {
                  "system": "https://fhir.nhs.uk/CodeSystem/DM-prescription-charge",
                  "code": "paid-once",
                  "display": "Paid Once"
                }
              ]
            }
          ],
          "subDetail": [
            {
              "sequence": 1,
              "productOrService": {
                "coding": [
                  {
                    "system": "http://snomed.info/sct",
                    "code": "15517911000001104",
                    "display": "Methotrexate 10mg/0.2ml solution for injection pre-filled syringes"
                  }
                ]
              },
              "quantity": {
                "value": 1,
                "unit": "pre-filled disposable injection",
                "system": "http://snomed.info/sct",
                "code": "3318611000001103"
              }
            }
          ]
        }
      ]
    }
  ]
}
