{
  "resourceType": "Bundle",
  "id": "f190329a-3854-4a31-9ff5-417969f2a40d",
  "identifier": {
    "system": "https://tools.ietf.org/html/rfc4122",
    "value": "704567ad-b5b6-4dbb-92b2-35308a520a26"
  },
  "type": "message",
  "entry": [
    {
      "fullUrl": "urn:uuid:f190329a-3854-4a31-9ff5-417969f2a40d",
      "resource": {
        "resourceType": "MessageHeader",
        "id": "f190329a-3854-4a31-9ff5-417969f2a40d",
        "eventCoding": {
          "system": "https://fhir.nhs.uk/CodeSystem/message-event",
          "code": "prescription-order",
          "display": "Prescription Order"
        },
        "sender": {
          "reference": "urn:uuid:56166769-c1c4-4d07-afa8-132b5dfca666",
          "display": "BOOTH|PHIL"
        },
        "source": {
          "extension": [
            {
              "url": "https://fhir.nhs.uk/R4/StructureDefinition/Extension-spineEndpoint",
              "valueIdentifier": {
                "system": "https://fhir.nhs.uk/Id/spine-ASID",
                "value": "12456789012"
              }
            }
          ],
          "name": "DJM",
          "endpoint": "https://mait.digital.nhs.uk/"
        },
        "focus": [
          {
            "reference": "urn:uuid:78d3c2eb-009e-4ec8-a358-b042954aa9b2"
          },
          {
            "reference": "urn:uuid:a54219b8-f741-4c47-b662-e4f8dfa49ab6"
          }
        ]
      }
    },
    {
      "fullUrl": "urn:uuid:a54219b8-f741-4c47-b662-e4f8dfa49ab6",
      "resource": {
        "resourceType": "MedicationRequest",
        "id": "a54219b8-f741-4c47-b662-e4f8dfa49ab6",
        "extension": [
          {
            "url": "https://fhir.nhs.uk/StructureDefinition/Extension-DM-PrescriptionType",
            "valueCoding": {
              "system": "https://fhir.nhs.uk/CodeSystem/prescription-type",
              "code": "1008",
              "display": "Outpatient Community Prescriber - Pharmacist Independent/Supplementary prescriber"
            }
          }
        ],
        "identifier": [
          {
            "system": "https://fhir.nhs.uk/Id/prescription-order-item-number",
            "value": "a54219b8-f741-4c47-b662-e4f8dfa49ab6"
          }
        ],
        "status": "active",
        "intent": "order",
        "category": [
          {
            "coding": [
              {
                "system": "http://terminology.hl7.org/CodeSystem/medicationrequest-category",
                "code": "outpatient",
                "display": "Outpatient"
              }
            ]
          }
        ],
        "medicationCodeableConcept": {
          "coding": [
            {
              "system": "http://snomed.info/sct",
              "code": "15517911000001104",
              "display": "Methotrexate 10mg/0.2ml solution for injection pre-filled syringes"
            }
          ]
        },
        "subject": {
          "reference": "urn:uuid:78d3c2eb-009e-4ec8-a358-b042954aa9b2"
        },
        "requester": {
          "reference": "urn:uuid:56166769-c1c4-4d07-afa8-132b5dfca666"
        },
        "groupIdentifier": {
          "extension": [
            {
              "url": "https://fhir.nhs.uk/StructureDefinition/Extension-DM-PrescriptionId",
              "valueIdentifier": {
                "system": "https://fhir.nhs.uk/Id/prescription",
                "value": "2b21b5eb-b188-443e-bb3b-199588b13fbf"
              }
            }
          ],
          "system": "https://fhir.nhs.uk/Id/prescription-order-number",
          "value": "C296DE-A99968-4E09B2"
        },
        "courseOfTherapyType": {
          "coding": [
            {
              "system": "http://terminology.hl7.org/CodeSystem/medicationrequest-course-of-therapy",
              "code": "acute",
              "display": "Short course (acute) therapy"
            }
          ]
        },
        "dosageInstruction": [
          {
            "text": "Inject 10 milligram - 5 times a day - Subcutaneous route - for 10 days",
            "timing": {
              "repeat": {
                "frequency": 5,
                "period": 1,
                "periodUnit": "d",
                "boundsDuration": {
                  "value": 10,
                  "unit": "day",
                  "system": "http://unitsofmeasure.org",
                  "code": "d"
                }
              }
            },
            "method": {
              "coding": [
                {
                  "system": "http://snomed.info/sct",
                  "code": "422145002",
                  "display": "Inject"
                }
              ]
            },
            "route": {
              "coding": [
                {
                  "system": "http://snomed.info/sct",
                  "code": "34206005",
                  "display": "Subcutaneous route"
                }
              ]
            },
            "doseAndRate": [
              {
                "doseQuantity": {
                  "value": 10,
                  "unit": "milligram",
                  "system": "http://unitsofmeasure.org",
                  "code": "mg"
                }
              }
            ]
          }
        ],
        "dispenseRequest": {
          "extension": [
            {
              "url": "https://fhir.nhs.uk/StructureDefinition/Extension-DM-PerformerSiteType",
              "valueCoding": {
                "system": "https://fhir.nhs.uk/CodeSystem/dispensing-site-preference",
                "code": "P1"
              }
            }
          ],
          "quantity": {
            "value": 1,
            "unit": "pre-filled disposable injection",
            "system": "http://snomed.info/sct",
            "code": "3318611000001103"
          },
          "performer": {
            "identifier": {
              "system": "https://fhir.nhs.uk/Id/ods-organization-code",
              "value": "FH542"
            }
          }
        },
        "substitution": {
          "allowedBoolean": false
        }
      }
    },
    {
      "fullUrl": "urn:uuid:78d3c2eb-009e-4ec8-a358-b042954aa9b2",
      "resource": {
        "resourceType": "Patient",
        "id": "78d3c2eb-009e-4ec8-a358-b042954aa9b2",
        "identifier": [
          {
            "system": "https://fhir.nhs.uk/Id/nhs-number",
            "value": "9449310394"
          }
        ],
        "name": [
          {
            "use": "official",
            "family": "Lewington",
            "given": ["TRACE"],
            "prefix": ["MR"]
          }
        ],
        "gender": "female",
        "birthDate": "1999-11-25",
        "address": [
          {
            "use": "home",
            "line": ["1 NETHERNE LANE", "COULSDON", "Surrey"],
            "postalCode": "CR5 1NR"
          }
        ],
        "generalPractitioner": [
          {
            "identifier": {
              "system": "https://fhir.nhs.uk/Id/ods-organization-code",
              "value": "B81001"
            }
          }
        ]
      }
    },
    {
      "fullUrl": "urn:uuid:a8c85454-f8cb-498d-9629-78e2cb5fa47a",
      "resource": {
        "resourceType": "Practitioner",
        "id": "a8c85454-f8cb-498d-9629-78e2cb5fa47a",
        "identifier": [
          {
            "system": "https://fhir.nhs.uk/Id/sds-user-id",
            "value": "555086689106"
          },
          {
            "system": "https://fhir.hl7.org.uk/Id/gphc-number",
            "value": "2083469"
          }
        ],
        "name": [
          {
            "family": "UserM",
            "given": ["RANDOM"],
            "prefix": ["MR"]
          }
        ]
      }
    },
    {
      "fullUrl": "urn:uuid:56166769-c1c4-4d07-afa8-132b5dfca666",
      "resource": {
        "resourceType": "PractitionerRole",
        "id": "56166769-c1c4-4d07-afa8-132b5dfca666",
        "identifier": [
          {
            "system": "https://fhir.nhs.uk/Id/sds-role-profile-id",
            "value": "201715352555"
          },
          {
            "system": "https://fhir.hl7.org.uk/Id/nhsbsa-spurious-code",
            "value": "2083469"
          }
        ],
        "practitioner": {
          "reference": "urn:uuid:a8c85454-f8cb-498d-9629-78e2cb5fa47a"
        },
        "organization": {
          "reference": "urn:uuid:3b4b03a5-52ba-4ba6-9b82-70350aa109d8"
        },
        "code": [
          {
            "coding": [
              {
                "system": "https://fhir.nhs.uk/CodeSystem/NHSDigital-SDS-JobRoleCode",
                "code": "S8003:G8003:R8003",
                "display": "Health Professional Access Role"
              }
            ]
          }
        ],
        "telecom": [
          {
            "system": "phone",
            "value": "01234567890",
            "use": "work"
          }
        ]
      }
    },
    {
      "fullUrl": "urn:uuid:3b4b03a5-52ba-4ba6-9b82-70350aa109d8",
      "resource": {
        "resourceType": "Organization",
        "id": "3b4b03a5-52ba-4ba6-9b82-70350aa109d8",
        "identifier": [
          {
            "system": "https://fhir.nhs.uk/Id/ods-organization-code",
            "value": "A99968"
          }
        ],
        "name": "SOMERSET BOWEL CANCER SCREENING CENTRE",
        "address": [
          {
            "use": "work",
            "line": ["MUSGROVE PARK HOSPITAL"],
            "city": "TAUNTON",
            "postalCode": "TA1 5DA"
          }
        ],
        "telecom": [
          {
            "system": "phone",
            "value": "01823 333444",
            "use": "work"
          }
        ],
        "partOf": {
          "identifier": {
            "system": "https://fhir.nhs.uk/Id/ods-organization-code",
            "value": "RBA"
          },
          "display": "TAUNTON AND SOMERSET NHS FOUNDATION TRUST"
        }
      }
    }
  ]
}
